Folder: Battery-Modeling/Battery3-main/Input

Note: Battery3-main/README.md
# Battery3
Get constant voltage (CV) capacity gain from the CV step from constant current/constant voltage (CCCV) charge and CC discharge cycling data

This program was written in conjunction with the publication ''Roby Gauthier et al 2022 J. Electrochem. Soc. 169 020518'', which can be found at https://iopscience.iop.org/article/10.1149/1945-7111/ac4b82/meta.

File: 83758_VQ.txt
RBG_CYC_83758_Nw_c0_41V_40C_180416_Lowercutoff_100DOD_C3C3_0000_11_3 (300407 Points)
Capacity (mAh)	Voltage (V)
0	3.7912
156.94	3.8442
56.05	3.5739
214.28	3.0657
61.66	3.7527
112.1	3.692
210.94	3.1225
11.21	4.0085
89.68	3.6445
128.92	3.7434
7.79	3.3413
168.15	3.4517
106.5	3.6008
50.45	3.798
190.57	4.0234
43.71	3.5094
100.89	3.6108
28.03	3.9003
179.36	3.9781
61.66	3.5909
1.23	3.1321
198.9	3.2552
162.55	3.4561
0.55	3.0598
123.31	3.7397
162.55	3.9118
11.21	4.0011
84.08	3.6514
145.73	3.5035
156.94	3.4644
190.57	3.3389
201.75	4.0814
28.03	3.896
28.03	3.896
202.07	4.0981
156.94	3.8988
100.89	3.683
112.1	3.7131
117.71	3.732
3.72	3.2347
7.75	3.3392
61.66	3.594
128.92	3.7785
22.42	3.9226
151.34	3.4678
7.75	3.3407
123.31	3.7593
198.37	4.0981
117.71	3.5608
1.4	3.1401
198.13	3.0908
44.86	3.5404
117.71	3.7428
184.97	4.0587
33.63	3.8634
100.89	3.5943
162.55	3.4322
110.95	3.5971
22.42	3.4818
151.34	3.9006
61.66	3.7264
184.97	3.2921
61.66	3.5977
50.45	3.7788
33.63	3.5128
72.86	3.6759
50.45	3.5605
89.68	3.6185
173.76	3.3885
117.71	3.7558
145.73	3.4669
128.92	3.8061
168.15	3.4049
140.13	3.8612
134.52	3.5032
166.41	3.4393
179.36	4.06
156.94	3.435
67.26	3.6201
50.44	3.7738
2.28	3.1839
11.21	3.98
5.6	3.2945
28.02	3.8873
11.21	3.4058
44.84	3.8008
184.05	3.1959
173.75	4.0438
186.48	3.1067
5.6	4.0178
56.05	3.5838
156.95	3.4269
188.06	4.0978
47.06	3.8116
39.23	3.8278
78.47	3.6532
128.91	3.5088
145.72	3.9109
11.21	3.4064
168.15	3.3832
61.65	3.7149
162.54	4.0008
39.23	3.5323
156.93	3.4201
15.13	3.4325
7.73	3.3432
106.48	3.5649
145.72	3.9198
3.61	3.235
72.86	3.6631
162.53	4.0091
65.55	3.594
145.72	3.4471
44.84	3.7958
145.72	3.9267
50.44	3.5677
0	3.0388
123.31	3.5156
31.94	3.8829
56.94	3.5915
5.29	3.2871
182.84	2.9991
173.75	3.2756
151.33	3.4263
117.7	3.5289
92.45	3.6774
162.54	4.0249
123.31	3.8244
28.02	3.505
7.77	3.346
0.49	3.0865
177.57	3.1439
156.94	3.403
61.65	3.7065
179.23	4.0978
89.68	3.692
78.47	3.6628
10.44	3.3968
167.96	3.3249
61.65	3.7047
179.54	4.0978
89.68	3.6935
50.44	3.5714
22.42	3.4895
22.42	3.4898
44.84	3.5537
78.47	3.6653
50.44	3.572
78.47	3.6656
112.1	3.7859
156.94	4.0101
3.46	4.0324
100.91	3.5639
175.17	3.0884
33.63	3.5233
128.91	3.8761
22.42	3.9109
72.86	3.6492
162.54	3.346
0.49	3.0877
61.65	3.6154
168.15	4.0962
67.26	3.6709
165.74	3.2834
10.41	3.3996
61.65	3.617
6.72	3.2942
0	4.0817
33.63	3.8457
100.88	3.5574
134.5	3.4492
173.64	2.9985
50.44	3.5776
151.33	4.0128
50.44	3.7518
33.62	3.8681
10.43	3.4027
100.89	3.7527
50.44	3.7506
0	3.0397
117.7	3.8386
134.51	3.444
117.7	3.8405
95.3	3.5673
67.25	3.6414
106.48	3.5336
78.46	3.6771
117.69	3.4948
67.25	3.6427
95.27	3.5642
164.72	4.0665
72.85	3.6362
56.04	3.6024
112.08	3.5112
95.27	3.7406
128.89	3.4514
112.08	3.8225
151.31	3.372
95.27	3.7416
67.25	3.6566
5.31	3.2992
151.3	4.0423
151.3	3.3646
134.49	3.949
159.71	3.2517
167.41	4.0975
0.49	3.0977
3.36	4.0299
5.1	3.2958
22.42	3.9012
13.8	3.4598
85.73	3.6879
112.07	3.8349
11.21	3.4229
159.35	3.2207
95.26	3.5522
16.81	3.935
134.49	3.9614
89.09	3.6033
44.83	3.5689
3.44	3.2477
162.5	3.0986
156.91	3.2428
89.66	3.5655
70.61	3.6408
140.09	3.9998
72.85	3.6728
11.21	3.426
162.51	3.0546
117.67	3.4669
56.03	3.6991
137.83	3.9412
16.81	3.4821
128.88	3.4306
162.31	4.0972
61.64	3.6371
1.12	3.1476
150.52	3.3079
123.27	3.444
56.03	3.6954
161.7	4.0975
112.08	3.8575
44.83	3.5751
3.34	3.2496
124.38	3.4728
128.89	3.4235
112.08	3.4768
117.68	3.4576
106.5	3.4973
112.08	3.4753
112.08	3.4747
153.75	3.2071
0.39	3.0983
16.1	3.4821
84.06	3.7233
155.01	4.0975
89.67	3.5506
45.38	3.7853
106.48	3.8389
28.02	3.8541
106.47	3.4902
158.09	3.0195
16.81	3.4858
129.42	3.4551
158.02	4.0975
61.64	3.6545
140.1	3.3603
2.04	3.2021
5.6	3.3231
7.73	3.3727
95.27	3.7853
106.48	3.8479
156.79	4.0975
67.25	3.6247
144.93	3.2992
4.86	3.3041
0	3.0757
5.6	4.0054
72.85	3.5987
148.44	3.2251
11.21	3.4378
89.66	3.763
56.04	3.6762
3.23	3.2548
134.49	4.0221
128.88	3.3956
112.07	3.8919
134.48	3.3702
89.66	3.767
117.67	3.4343
112.07	3.895
152.64	3.0493
56.03	3.6712
128.88	3.9967
16.81	3.4892
145.69	3.2279
33.62	3.8064
72.84	3.6966
152.58	2.9988
72.84	3.5884
112.07	3.4464